File: 2023.2024/10_neuronske_mreze_regresija/za-vezbu/concrete_data.csv
,Cement (component 1)(kg in a m^3 mixture),Blast Furnace Slag (component 2)(kg in a m^3 mixture),Fly Ash (component 3)(kg in a m^3 mixture),Water  (component 4)(kg in a m^3 mixture),Superplasticizer (component 5)(kg in a m^3 mixture),Coarse Aggregate  (component 6)(kg in a m^3 mixture),Fine Aggregate (component 7)(kg in a m^3 mixture),Age (day),"Concrete compressive strength(MPa, megapascals) "
0,540.0,0.0,0.0,162.0,2.5,1040.0,676.0,28,79.9861
2,332.5,142.5,0.0,228.0,0.0,932.0,594.0,270,40.2695
4,198.6,132.4,0.0,192.0,0.0,978.4,825.5,360,44.2961
6,380.0,95.0,0.0,228.0,0.0,932.0,594.0,365,43.6983
8,266.0,114.0,0.0,228.0,0.0,932.0,670.0,28,45.8543
10,198.6,132.4,0.0,192.0,0.0,978.4,825.5,90,38.0742
12,427.5,47.5,0.0,228.0,0.0,932.0,594.0,270,43.013
14,304.0,76.0,0.0,228.0,0.0,932.0,670.0,28,47.8138
16,139.6,209.4,0.0,192.0,0.0,1047.0,806.9,90,39.358
18,380.0,95.0,0.0,228.0,0.0,932.0,594.0,90,40.5633
20,427.5,47.5,0.0,228.0,0.0,932.0,594.0,180,41.8367
22,139.6,209.4,0.0,192.0,0.0,1047.0,806.9,3,8.06342
24,380.0,0.0,0.0,228.0,0.0,932.0,670.0,365,52.5167
26,380.0,95.0,0.0,228.0,0.0,932.0,594.0,270,41.1514
28,427.5,47.5,0.0,228.0,0.0,932.0,594.0,28,37.4275
30,304.0,76.0,0.0,228.0,0.0,932.0,670.0,365,55.2601
32,198.6,132.4,0.0,192.0,0.0,978.4,825.5,180,41.7195
34,190.0,190.0,0.0,228.0,0.0,932.0,670.0,365,53.6923
36,237.5,237.5,0.0,228.0,0.0,932.0,594.0,28,30.0798
38,475.0,0.0,0.0,228.0,0.0,932.0,594.0,90,42.229
40,342.0,38.0,0.0,228.0,0.0,932.0,670.0,90,50.4593
42,237.5,237.5,0.0,228.0,0.0,932.0,594.0,365,38.9954
44,427.5,47.5,0.0,228.0,0.0,932.0,594.0,90,41.543
46,349.0,0.0,0.0,192.0,0.0,1047.0,806.9,3,15.0492
48,237.5,237.5,0.0,228.0,0.0,932.0,594.0,7,26.258
50,332.5,142.5,0.0,228.0,0.0,932.0,594.0,180,39.7793
52,237.5,237.5,0.0,228.0,0.0,932.0,594.0,90,33.1169
54,139.6,209.4,0.0,192.0,0.0,1047.0,806.9,7,14.5893
56,475.0,0.0,0.0,228.0,0.0,932.0,594.0,365,41.9346
58,304.0,76.0,0.0,228.0,0.0,932.0,670.0,180,50.9488
60,304.0,76.0,0.0,228.0,0.0,932.0,670.0,270,54.3783
62,310.0,0.0,0.0,192.0,0.0,971.0,850.6,3,9.8664
64,266.0,114.0,0.0,228.0,0.0,932.0,670.0,180,48.6956
66,139.6,209.4,0.0,192.0,0.0,1047.0,806.9,360,44.698
68,190.0,190.0,0.0,228.0,0.0,932.0,670.0,28,40.857
70,374.0,189.2,0.0,170.1,10.1,926.1,756.7,3,34.398
72,425.0,106.3,0.0,153.5,16.5,852.1,887.1,3,33.3982
74,375.0,93.8,0.0,126.6,23.4,852.1,992.6,3,28.9994
76,469.0,117.2,0.0,137.8,32.2,852.1,840.5,3,40.1965
78,388.6,97.1,0.0,157.9,12.1,852.1,925.7,3,28.0961
80,425.0,106.3,0.0,153.5,16.5,852.1,887.1,3,33.3982
82,401.8,94.7,0.0,147.4,11.4,946.8,852.1,3,41.0997
84,323.7,282.8,0.0,183.8,10.3,942.7,659.9,3,28.2961
86,362.6,189.0,0.0,164.9,11.6,944.7,755.8,3,35.3012
88,362.6,189.0,0.0,164.9,11.6,944.7,755.8,3,35.3012
90,389.9,189.0,0.0,145.9,22.0,944.7,755.8,3,40.5963
92,337.9,189.0,0.0,174.9,9.5,944.7,755.8,3,24.0972
94,313.3,262.2,0.0,175.5,8.6,1046.9,611.8,7,42.7958
96,425.0,106.3,0.0,151.4,18.6,936.0,803.7,7,46.8016
98,475.0,118.8,0.0,181.1,8.9,852.1,781.5,7,55.5993
100,425.0,106.3,0.0,153.5,16.5,852.1,887.1,7,49.201
102,531.3,0.0,0.0,141.8,28.2,852.1,893.7,7,46.8982
104,318.8,212.5,0.0,155.7,14.3,852.1,880.4,7,33.3982
106,362.6,189.0,0.0,164.9,11.6,944.7,755.8,7,55.8958
108,379.5,151.2,0.0,153.9,15.9,1134.3,605.0,7,47.0981
110,286.3,200.9,0.0,144.7,11.2,1004.6,803.7,7,37.997
112,439.0,177.0,0.0,186.0,11.1,884.9,707.9,7,56.0958
114,362.6,189.0,0.0,164.9,11.6,944.7,755.8,7,22.8975
116,374.0,189.2,0.0,170.1,10.1,926.1,756.7,28,61.0945
118,425.0,106.3,0.0,153.5,16.5,852.1,887.1,28,60.2947
120,375.0,93.8,0.0,126.6,23.4,852.1,992.6,28,56.6956
122,469.0,117.2,0.0,137.8,32.2,852.1,840.5,28,66.8999
124,388.6,97.1,0.0,157.9,12.1,852.1,925.7,28,50.6972
126,425.0,106.3,0.0,153.5,16.5,852.1,887.1,28,60.2947
128,401.8,94.7,0.0,147.4,11.4,946.8,852.1,28,68.4994
130,323.7,282.8,0.0,183.8,10.3,942.7,659.9,28,74.6978
132,362.6,189.0,0.0,164.9,11.6,944.7,755.8,28,71.2987
134,362.6,189.0,0.0,164.9,11.6,944.7,755.8,28,71.2987
136,389.9,189.0,0.0,145.9,22.0,944.7,755.8,28,74.4979
138,337.9,189.0,0.0,174.9,9.5,944.7,755.8,28,49.8974
140,313.3,262.2,0.0,175.5,8.6,1046.9,611.8,56,64.9004
142,425.0,106.3,0.0,151.4,18.6,936.0,803.7,56,64.9004
144,475.0,118.8,0.0,181.1,8.9,852.1,781.5,56,72.2985
146,425.0,106.3,0.0,153.5,16.5,852.1,887.1,56,64.3005
148,531.3,0.0,0.0,141.8,28.2,852.1,893.7,56,58.7985
150,318.8,212.5,0.0,155.7,14.3,852.1,880.4,56,66.1001
152,362.6,189.0,0.0,164.9,11.6,944.7,755.8,56,77.2972
154,379.5,151.2,0.0,153.9,15.9,1134.3,605.0,56,54.8961
156,286.3,200.9,0.0,144.7,11.2,1004.6,803.7,56,72.9948
158,439.0,177.0,0.0,186.0,11.1,884.9,707.9,56,71.6986
160,362.6,189.0,0.0,164.9,11.6,944.7,755.8,56,77.2972
162,374.0,189.2,0.0,170.1,10.1,926.1,756.7,91,64.9004
164,425.0,106.3,0.0,153.5,16.5,852.1,887.1,91,65.1969
166,375.0,93.8,0.0,126.6,23.4,852.1,992.6,91,62.501
168,469.0,117.2,0.0,137.8,32.2,852.1,840.5,91,70.6989
170,388.6,97.1,0.0,157.9,12.1,852.1,925.7,91,57.5988
172,425.0,106.3,0.0,153.5,16.5,852.1,887.1,91,65.1969
174,401.8,94.7,0.0,147.4,11.4,946.8,852.1,91,75.4976
176,379.5,151.2,0.0,153.9,15.9,1134.3,605.0,91,56.4957
178,286.3,200.9,0.0,144.7,11.2,1004.6,803.7,91,76.8007
180,439.0,177.0,0.0,186.0,11.1,884.9,707.9,91,73.2982
182,362.6,189.0,0.0,164.9,11.6,944.7,755.8,91,79.2966
184,222.36,0.0,96.67,189.29,4.46,967.08,870.32,3,11.5763
186,222.36,0.0,96.67,189.29,4.46,967.08,870.32,28,24.8901
188,222.36,0.0,96.67,189.29,4.46,967.08,870.32,100,40.7136
190,233.81,0.0,94.58,197.89,4.567,947.04,852.16,14,22.1391
192,233.81,0.0,94.58,197.89,4.567,947.04,852.16,56,27.6618
194,194.68,0.0,100.52,165.62,7.48,1006.4,905.9,3,12.4519
196,194.68,0.0,100.52,165.62,7.48,1006.4,905.9,28,25.7243
198,194.68,0.0,100.52,165.62,7.48,1006.4,905.9,100,37.342
200,190.68,0.0,125.4,162.14,7.77,1090.0,804.01,14,21.0635
202,190.68,0.0,125.4,162.14,7.77,1090.0,804.01,56,35.3425
204,212.07,0.0,121.62,180.31,5.69,1057.6,779.32,3,12.4726
206,212.07,0.0,121.62,180.31,5.69,1057.6,779.32,28,24.9039
208,212.07,0.0,121.62,180.31,5.69,1057.6,779.32,100,39.6104
210,229.97,0.0,118.31,195.47,4.63,1029.4,758.59,14,20.0844
212,229.97,0.0,118.31,195.47,4.63,1029.4,758.59,56,31.5366
214,190.34,0.0,125.18,161.85,9.88,1088.1,802.59,3,9.44582
216,190.34,0.0,125.18,161.85,9.88,1088.1,802.59,28,28.4685
218,190.34,0.0,125.18,161.85,9.88,1088.1,802.59,100,40.3895
220,166.09,0.0,163.27,176.46,4.49,1058.6,780.09,14,25.483
222,166.09,0.0,163.27,176.46,4.49,1058.6,780.09,56,28.627
224,167.95,42.08,163.83,121.75,5.72,1058.7,780.11,3,7.74971
226,167.95,42.08,163.83,121.75,5.72,1058.7,780.11,28,24.242
228,167.95,42.08,163.83,121.75,5.72,1058.7,780.11,100,39.2312
230,213.72,98.05,24.51,181.71,6.86,1065.8,785.38,14,30.3852
232,213.72,98.05,24.51,181.71,6.86,1065.8,785.38,56,50.773
234,213.76,98.06,24.52,181.74,6.65,1066.0,785.52,3,13.1828
236,213.76,98.06,24.52,181.74,6.65,1066.0,785.52,28,40.2309
238,213.76,98.06,24.52,181.74,6.65,1066.0,785.52,100,49.9732
240,229.68,0.0,118.16,195.23,6.13,1028.1,757.63,14,22.3183
242,229.68,0.0,118.16,195.23,6.13,1028.1,757.63,56,31.3505
244,238.05,0.0,94.11,186.66,7.0,949.91,847.01,3,19.9328
246,238.05,0.0,94.11,186.66,7.0,949.91,847.01,28,30.2335
248,238.05,0.0,94.11,186.66,7.0,949.91,847.01,100,44.2988
250,250.0,0.0,95.69,187.42,5.53,956.86,861.17,14,24.9177
252,250.0,0.0,95.69,187.42,5.53,956.86,861.17,56,38.328
254,212.52,0.0,100.37,159.32,8.71,1007.8,903.59,3,13.5413
256,212.52,0.0,100.37,159.32,8.71,1007.8,903.59,28,31.6401
258,212.52,0.0,100.37,159.32,8.71,1007.8,903.59,100,42.9199
260,212.57,0.0,100.39,159.35,10.37,1003.8,903.79,14,25.3727
262,212.57,0.0,100.39,159.35,10.37,1003.8,903.79,56,44.3954
264,212.0,0.0,124.78,159.0,7.84,1085.4,799.54,3,19.5191
266,212.0,0.0,124.78,159.0,7.84,1085.4,799.54,28,38.5003
268,212.0,0.0,124.78,159.0,7.84,1085.4,799.54,100,47.8152
270,231.75,0.0,121.62,173.96,6.72,1056.4,778.45,14,26.7724
272,231.75,0.0,121.62,173.96,6.72,1056.4,778.45,56,42.6992
274,251.37,0.0,118.27,188.45,5.75,1028.4,757.73,3,17.2231
276,251.37,0.0,118.27,188.45,5.75,1028.4,757.73,28,29.6544
278,251.37,0.0,118.27,188.45,5.75,1028.4,757.73,100,43.5818
280,251.37,0.0,118.27,188.45,6.35,1028.4,757.73,14,24.4281
282,251.37,0.0,118.27,188.45,6.35,1028.4,757.73,56,36.6388
284,181.38,0.0,167.01,169.59,7.56,1055.6,777.8,3,13.624
286,181.38,0.0,167.01,169.59,7.56,1055.6,777.8,28,27.7721
288,181.38,0.0,167.01,169.59,7.56,1055.6,777.8,100,45.3675
290,182.04,45.21,121.97,170.21,8.19,1059.4,780.65,14,21.5048
292,182.04,45.21,121.97,170.21,8.19,1059.4,780.65,56,43.499
294,168.88,42.22,124.25,158.33,10.83,1080.8,796.15,3,7.39808
296,168.88,42.22,124.25,158.33,10.83,1080.8,796.15,28,31.1161
298,168.88,42.22,124.25,158.33,10.83,1080.8,796.15,100,48.153
300,290.35,0.0,96.18,168.08,9.41,961.18,865.0,14,34.6737
302,290.35,0.0,96.18,168.08,9.41,961.18,865.0,56,45.0848
304,277.05,0.0,97.39,160.6,11.83,973.9,875.61,3,23.1388
306,277.05,0.0,97.39,160.6,11.83,973.9,875.61,28,48.284
308,277.05,0.0,97.39,160.6,11.83,973.9,875.61,100,55.6407
310,295.71,0.0,95.64,171.54,8.87,955.14,859.2,14,35.2322
312,295.71,0.0,95.64,171.54,8.87,955.14,859.2,56,48.7184
314,251.81,0.0,99.94,146.14,12.35,1006.0,899.76,3,21.0221
316,251.81,0.0,99.94,146.14,12.35,1006.0,899.76,28,33.9429
318,251.81,0.0,99.94,146.14,12.35,1006.0,899.76,100,45.3675
320,249.1,0.0,98.75,158.11,12.8,987.76,889.01,14,28.6822
322,249.1,0.0,98.75,158.11,12.8,987.76,889.01,56,42.0305
324,252.31,0.0,98.75,146.25,14.17,987.76,889.01,3,21.7805
326,252.31,0.0,98.75,146.25,14.17,987.76,889.01,28,50.6006
328,252.31,0.0,98.75,146.25,14.17,987.76,889.01,100,60.9497
330,246.83,0.0,125.08,143.3,11.99,1086.8,800.89,14,42.2166
332,246.83,0.0,125.08,143.3,11.99,1086.8,800.89,56,60.3223
334,275.07,0.0,121.35,159.48,9.9,1053.6,777.5,3,23.8007
336,275.07,0.0,121.35,159.48,9.9,1053.6,777.5,28,51.3315
338,275.07,0.0,121.35,159.48,9.9,1053.6,777.5,100,58.60546
340,297.16,0.0,117.54,174.8,9.52,1022.8,753.45,14,36.9904
342,297.16,0.0,117.54,174.8,9.52,1022.8,753.45,56,51.9589
344,213.74,0.0,174.74,154.79,10.16,1053.5,776.35,3,17.5747
346,213.74,0.0,174.74,154.79,10.16,1053.5,776.35,28,40.1482
348,213.74,0.0,174.74,154.79,10.16,1053.5,776.35,100,50.0766
350,213.5,0.0,174.24,154.61,11.66,1052.3,775.48,14,33.7016
352,213.5,0.0,174.24,154.61,11.66,1052.3,775.48,56,51.4349
354,277.19,97.82,24.46,160.7,11.19,1061.7,782.46,3,30.4473
356,277.19,97.82,24.46,160.7,11.19,1061.7,782.46,28,63.1422
358,277.19,97.82,24.46,160.7,11.19,1061.7,782.46,100,66.9481
360,218.23,54.64,123.78,140.75,11.91,1075.7,792.67,14,35.9562
362,218.23,54.64,123.78,140.75,11.91,1075.7,792.67,56,61.9908
364,214.9,53.8,121.89,155.63,9.61,1014.3,780.58,3,18.016
366,214.9,53.8,121.89,155.63,9.61,1014.3,780.58,28,52.2002
368,214.9,53.8,121.89,155.63,9.61,1014.3,780.58,100,56.6336
370,218.85,0.0,124.13,158.49,11.33,1078.7,794.91,14,26.0484
372,218.85,0.0,124.13,158.49,11.33,1078.7,794.91,56,37.2662
374,376.0,0.0,0.0,214.6,0.0,1003.5,762.36,3,16.2785
376,376.0,0.0,0.0,214.6,0.0,1003.5,762.36,28,31.971
378,376.0,0.0,0.0,214.6,0.0,1003.5,762.36,100,43.0578
380,475.0,0.0,59.0,142.0,1.9,1098.0,641.0,28,57.2265
382,505.0,0.0,60.0,195.0,0.0,1030.0,630.0,28,64.0178
384,516.0,0.0,0.0,162.0,8.2,801.0,802.0,28,41.36856
386,528.0,0.0,0.0,185.0,6.86,920.0,720.0,28,56.8335
388,385.0,0.0,136.0,158.0,20.0,903.0,768.0,28,55.5511
390,450.1,50.0,0.0,200.0,3.0,1124.4,613.2,28,39.376
392,333.0,17.5,163.0,167.0,17.9,996.0,652.0,28,47.2774
394,405.0,0.0,0.0,175.0,0.0,1120.0,695.0,28,52.3036
396,516.0,0.0,0.0,162.0,8.26,801.0,802.0,28,41.36856
398,160.0,128.0,122.0,182.0,6.4,824.0,879.0,28,39.3967
400,250.0,180.0,95.0,159.0,9.45,860.0,800.0,28,67.8651
402,285.0,190.0,0.0,163.0,7.6,1031.0,685.0,28,53.5792
404,275.0,180.0,120.0,162.0,10.35,830.0,765.0,28,76.2354
406,165.0,0.02,143.57,163.81,0.0,1005.6,900.9,3,14.3963
408,178.03,129.8,118.6,179.94,3.57,1007.3,746.8,3,20.7256
410,172.38,13.61,172.37,156.76,4.14,1006.3,856.4,3,21.291
412,167.0,75.4,167.0,164.03,7.91,1007.3,770.1,3,15.5201
414,190.34,0.0,125.18,166.61,9.88,1079.0,798.9,3,12.5485
416,213.5,0.0,174.24,159.21,11.66,1043.6,771.9,3,15.6097
418,251.37,0.0,118.27,192.94,5.75,1043.6,754.3,3,11.9831
420,165.0,128.5,132.1,175.06,8.08,1005.8,746.6,14,33.088
422,167.35,129.9,128.62,175.46,7.79,1006.3,746.6,14,31.8124
424,173.54,50.05,173.53,164.77,6.47,1006.2,793.5,14,33.0052
426,173.81,93.37,159.9,172.34,9.73,1007.2,746.6,14,29.5509
428,250.0,0.0,95.69,191.84,5.33,948.9,857.2,14,24.6557
430,194.68,0.0,100.52,170.17,7.48,998.0,901.8,14,24.2833
432,165.0,0.02,143.57,163.81,0.0,1005.6,900.9,28,26.2001
434,178.03,129.8,118.6,179.94,3.57,1007.3,746.8,28,39.1622
436,172.38,13.61,172.37,156.76,4.14,1006.3,856.4,28,33.6878
438,167.0,75.4,167.0,164.03,7.91,1007.3,770.1,28,41.4099
440,190.34,0.0,125.18,166.61,9.88,1079.0,798.9,28,24.8487
442,213.5,0.0,174.24,159.21,11.66,1043.6,771.9,28,44.6367
444,251.37,0.0,118.27,192.94,5.75,1043.6,754.3,28,33.2741
446,165.0,128.5,132.1,175.06,8.08,1005.8,746.6,56,53.724
448,167.35,129.9,128.62,175.46,7.79,1006.3,746.6,56,51.7245
450,173.54,50.05,173.53,164.77,6.47,1006.2,793.5,56,53.7722
452,173.81,93.37,159.9,172.34,9.73,1007.2,746.6,56,48.9873
454,250.0,0.0,95.69,191.84,5.33,948.9,857.2,56,39.64487
456,194.68,0.0,100.52,170.17,7.48,998.0,901.8,56,43.3887
458,165.0,0.02,143.57,163.81,0.0,1005.6,900.9,100,37.9557
460,178.03,129.8,118.6,179.94,3.57,1007.3,746.8,100,49.9939
462,172.38,13.61,172.37,156.76,4.14,1006.3,856.4,100,37.6799
464,167.0,75.4,167.0,164.03,7.91,1007.3,770.1,100,56.8128
466,190.34,0.0,125.18,166.61,9.88,1079.0,798.9,100,33.5637
468,213.5,0.0,174.24,159.21,11.66,1043.6,771.9,100,52.9587
470,251.37,0.0,118.27,192.94,5.75,1043.6,754.3,100,40.1482
472,446.0,24.0,79.0,162.0,11.64,967.0,712.0,28,44.4229
474,446.0,24.0,79.0,162.0,10.3,967.0,712.0,28,53.3861
476,446.0,24.0,79.0,162.0,11.64,967.0,712.0,3,25.0211
478,446.0,24.0,79.0,162.0,11.61,967.0,712.0,7,52.0072
480,446.0,24.0,79.0,162.0,11.64,967.0,712.0,7,39.3001
482,446.0,24.0,79.0,162.0,11.64,967.0,712.0,56,56.144
484,446.0,24.0,79.0,162.0,10.3,967.0,712.0,56,54.7651
486,387.0,20.0,94.0,157.0,13.93,938.0,845.0,28,46.6844
488,387.0,20.0,94.0,157.0,14.32,938.0,845.0,3,22.7527
490,387.0,20.0,94.0,157.0,11.61,938.0,845.0,3,34.7703
492,387.0,20.0,94.0,157.0,13.93,938.0,845.0,7,45.8984
494,387.0,20.0,94.0,157.0,14.32,938.0,845.0,56,56.3371
496,387.0,20.0,94.0,157.0,11.61,938.0,845.0,56,61.4599
498,355.0,19.0,97.0,145.0,12.25,967.0,871.0,28,55.4546
500,491.0,26.0,123.0,201.0,3.93,822.0,699.0,28,57.916
502,491.0,26.0,123.0,210.0,3.93,882.0,699.0,7,33.4888
504,491.0,26.0,123.0,201.0,3.93,822.0,699.0,3,29.549
506,491.0,26.0,123.0,201.0,3.93,822.0,699.0,56,61.8558
508,424.0,22.0,132.0,178.0,8.48,882.0,750.0,3,32.0114
510,424.0,22.0,132.0,178.0,8.48,822.0,750.0,7,39.0046
512,424.0,22.0,132.0,168.0,8.92,822.0,750.0,3,32.1099
514,424.0,22.0,132.0,168.0,8.92,822.0,750.0,56,74.3649
516,202.0,11.0,141.0,206.0,1.72,942.0,801.0,3,9.84966
518,202.0,11.0,141.0,206.0,1.72,942.0,801.0,56,23.2452
520,284.0,15.0,141.0,179.0,5.46,842.0,801.0,3,13.3955
522,284.0,15.0,141.0,179.0,5.46,842.0,801.0,56,44.5205
524,359.0,19.0,141.0,154.0,10.91,942.0,801.0,28,59.4949
526,359.0,19.0,141.0,154.0,10.91,942.0,801.0,3,23.6392
528,359.0,19.0,141.0,154.0,10.91,942.0,801.0,7,38.6107
530,359.0,19.0,141.0,154.0,10.91,942.0,801.0,56,66.7807
532,289.0,0.0,0.0,192.0,0.0,913.2,895.3,90,32.0682
534,393.0,0.0,0.0,192.0,0.0,940.6,785.6,3,19.1991
536,393.0,0.0,0.0,192.0,0.0,940.6,785.6,28,39.6049
538,480.0,0.0,0.0,192.0,0.0,936.2,712.2,7,34.5696
540,480.0,0.0,0.0,192.0,0.0,936.2,712.2,3,24.4047
542,255.0,0.0,0.0,192.0,0.0,889.8,945.0,90,21.8591
544,289.0,0.0,0.0,192.0,0.0,913.2,895.3,7,14.5969
546,333.0,0.0,0.0,192.0,0.0,931.2,842.6,28,31.9669
548,289.0,0.0,0.0,192.0,0.0,913.2,895.3,28,25.5734
550,393.0,0.0,0.0,192.0,0.0,940.6,785.6,7,27.7424
552,158.8,238.2,0.0,185.7,0.0,1040.6,734.3,7,9.6175
554,238.2,158.8,0.0,185.7,0.0,1040.6,734.3,7,15.6911
556,193.5,290.2,0.0,185.7,0.0,998.2,704.3,28,32.6267
558,272.8,181.9,0.0,185.7,0.0,1012.4,714.3,7,19.7652
560,220.8,147.2,0.0,185.7,0.0,1055.0,744.3,28,25.745
562,382.5,0.0,0.0,185.7,0.0,1047.8,739.3,7,24.0655
564,158.8,238.2,0.0,185.7,0.0,1040.6,734.3,28,21.0662
566,255.5,170.3,0.0,185.7,0.0,1026.6,724.3,28,32.0517
568,397.0,0.0,0.0,185.7,0.0,1040.6,734.3,7,25.4479
570,295.8,0.0,0.0,185.7,0.0,1091.4,769.3,28,25.2169
572,220.8,147.2,0.0,185.7,0.0,1055.0,744.3,7,13.089
574,135.7,203.5,0.0,185.7,0.0,1076.2,759.3,7,7.50701
576,339.2,0.0,0.0,185.7,0.0,1069.2,754.3,7,21.1793
578,193.5,290.2,0.0,185.7,0.0,998.2,704.3,7,17.2004
580,290.2,193.5,0.0,185.7,0.0,998.2,704.3,7,21.8591
582,170.3,155.5,0.0,185.7,0.0,1026.6,724.3,28,25.7264
584,228.0,342.1,0.0,185.7,0.0,955.8,674.3,7,21.9171
586,381.4,0.0,0.0,185.7,0.0,1104.6,784.3,7,14.541
588,186.2,124.1,0.0,185.7,0.0,1083.4,764.3,7,7.99585
590,238.1,0.0,0.0,185.7,0.0,1118.8,789.3,7,10.3359
592,382.5,0.0,0.0,185.7,0.0,1047.8,739.3,28,37.4379
594,316.1,210.7,0.0,185.7,0.0,977.0,689.3,7,24.4378
596,170.3,155.5,0.0,185.7,0.0,1026.6,724.3,7,10.7303
598,339.0,0.0,0.0,197.0,0.0,968.0,781.0,3,13.2241
600,339.0,0.0,0.0,197.0,0.0,968.0,781.0,14,27.0412
602,339.0,0.0,0.0,197.0,0.0,968.0,781.0,90,35.1702
604,339.0,0.0,0.0,197.0,0.0,968.0,781.0,365,38.8933
606,236.0,0.0,0.0,194.0,0.0,968.0,885.0,14,12.838
608,236.0,0.0,0.0,194.0,0.0,968.0,885.0,90,21.946
610,236.0,0.0,0.0,193.0,0.0,968.0,885.0,365,25.0831
612,277.0,0.0,0.0,191.0,0.0,968.0,856.0,28,25.9657
614,277.0,0.0,0.0,191.0,0.0,968.0,856.0,90,31.2539
616,277.0,0.0,0.0,191.0,0.0,968.0,856.0,360,33.7016
618,254.0,0.0,0.0,198.0,0.0,968.0,863.0,90,26.9447
620,254.0,0.0,0.0,198.0,0.0,968.0,863.0,365,29.7854
622,307.0,0.0,0.0,193.0,0.0,968.0,812.0,365,36.1492
624,307.0,0.0,0.0,193.0,0.0,968.0,812.0,28,27.5308
626,236.0,0.0,0.0,193.0,0.0,968.0,885.0,7,9.99051
628,200.0,0.0,0.0,180.0,0.0,1125.0,845.0,28,12.2451
630,225.0,0.0,0.0,181.0,0.0,1113.0,833.0,28,17.3403
632,325.0,0.0,0.0,184.0,0.0,1063.0,783.0,28,30.5714
634,275.0,0.0,0.0,183.0,0.0,1088.0,808.0,28,24.4971
636,300.0,0.0,0.0,184.0,0.0,1075.0,795.0,28,26.8482
638,375.0,0.0,0.0,186.0,0.0,1038.0,758.0,28,38.2108
640,400.0,0.0,0.0,187.0,0.0,1025.0,745.0,7,30.1439
642,250.0,0.0,0.0,182.0,0.0,1100.0,820.0,28,20.8704
644,350.0,0.0,0.0,186.0,0.0,1050.0,770.0,28,34.2945
646,250.2,166.8,0.0,203.5,0.0,977.6,694.1,90,47.7145
648,141.3,212.0,0.0,203.5,0.0,971.8,748.5,28,29.8922
650,122.6,183.9,0.0,203.5,0.0,958.2,800.1,90,33.1921
652,102.0,153.0,0.0,192.0,0.0,887.0,942.0,3,4.56502
654,122.6,183.9,0.0,203.5,0.0,958.2,800.1,28,24.2909
656,200.0,133.0,0.0,192.0,0.0,965.4,806.2,3,11.4143
658,305.3,203.5,0.0,203.5,0.0,965.4,631.0,7,25.894
660,116.0,173.0,0.0,192.0,0.0,909.8,891.9,90,31.0237
662,157.0,236.0,0.0,192.0,0.0,935.4,781.2,28,33.6644
664,250.2,166.8,0.0,203.5,0.0,977.6,694.1,7,19.3501
666,192.0,288.0,0.0,192.0,0.0,929.8,716.1,3,12.7884
668,153.0,102.0,0.0,192.0,0.0,888.0,943.1,3,4.78221
670,305.3,203.5,0.0,203.5,0.0,965.4,631.0,28,43.377
672,173.0,116.0,0.0,192.0,0.0,946.8,856.8,3,6.94095
674,236.0,157.0,0.0,192.0,0.0,972.6,749.1,3,13.5654
676,166.8,250.2,0.0,203.5,0.0,975.6,692.6,7,15.7483
678,288.0,192.0,0.0,192.0,0.0,932.0,717.8,28,38.8044
680,102.0,153.0,0.0,192.0,0.0,887.0,942.0,28,17.2755
682,183.9,122.6,0.0,203.5,0.0,959.2,800.0,28,24.0462
684,192.0,288.0,0.0,192.0,0.0,929.8,716.1,90,50.7323
686,305.3,203.5,0.0,203.5,0.0,965.4,631.0,3,14.1439
688,108.3,162.4,0.0,203.5,0.0,938.2,849.0,3,2.33181
690,288.0,192.0,0.0,192.0,0.0,932.0,717.8,7,23.5235
692,212.0,141.3,0.0,203.5,0.0,973.4,750.0,90,39.7
694,236.0,157.0,0.0,192.0,0.0,972.6,749.1,28,32.8846
696,183.9,122.6,0.0,203.5,0.0,959.2,800.0,7,10.7875
698,203.5,305.3,0.0,203.5,0.0,963.4,630.0,28,41.6843
700,133.0,200.0,0.0,192.0,0.0,927.4,839.2,3,6.88373
702,200.0,133.0,0.0,192.0,0.0,965.4,806.2,7,17.1659
704,250.2,166.8,0.0,203.5,0.0,977.6,694.1,3,9.73126
706,153.0,102.0,0.0,192.0,0.0,888.0,943.1,90,26.3228
708,116.0,173.0,0.0,192.0,0.0,909.8,891.9,3,6.28044
710,250.2,166.8,0.0,203.5,0.0,977.6,694.1,28,36.9642
712,192.0,288.0,0.0,192.0,0.0,929.8,716.1,7,21.4806
714,153.0,102.0,0.0,192.0,0.0,888.0,943.1,7,8.37438
716,116.0,173.0,0.0,192.0,0.0,909.8,891.9,7,10.0898
718,122.6,183.9,0.0,203.5,0.0,958.2,800.1,7,10.3546
720,203.5,305.3,0.0,203.5,0.0,963.4,630.0,90,51.8638
722,310.0,0.0,0.0,192.0,0.0,1012.0,830.0,7,17.2438
724,310.0,0.0,0.0,192.0,0.0,1012.0,830.0,90,35.7631
726,331.0,0.0,0.0,192.0,0.0,1025.0,821.0,3,14.3066
728,331.0,0.0,0.0,192.0,0.0,1025.0,821.0,28,31.7435
730,331.0,0.0,0.0,192.0,0.0,1025.0,821.0,120,39.3829
732,349.0,0.0,0.0,192.0,0.0,1056.0,809.0,7,9.01145
734,349.0,0.0,0.0,192.0,0.0,1056.0,809.0,90,40.6584
736,238.0,0.0,0.0,186.0,0.0,1119.0,789.0,7,12.052
738,296.0,0.0,0.0,186.0,0.0,1090.0,769.0,7,18.9123
740,297.0,0.0,0.0,186.0,0.0,1040.0,734.0,7,30.9575
742,480.0,0.0,0.0,192.0,0.0,936.0,721.0,90,54.2756
744,281.0,0.0,0.0,186.0,0.0,1104.0,774.0,7,14.4997
746,500.0,0.0,0.0,200.0,0.0,1125.0,613.0,1,12.6381
748,500.0,0.0,0.0,200.0,0.0,1125.0,613.0,7,33.2121
750,500.0,0.0,0.0,200.0,0.0,1125.0,613.0,28,44.092
752,540.0,0.0,0.0,173.0,0.0,1125.0,613.0,14,59.7638
754,540.0,0.0,0.0,173.0,0.0,1125.0,613.0,90,69.6578
756,540.0,0.0,0.0,173.0,0.0,1125.0,613.0,270,74.1669
758,350.0,0.0,0.0,203.0,0.0,974.0,775.0,14,22.5321
760,350.0,0.0,0.0,203.0,0.0,974.0,775.0,56,29.9784
762,350.0,0.0,0.0,203.0,0.0,974.0,775.0,180,32.7225
764,385.0,0.0,0.0,186.0,0.0,966.0,763.0,3,14.6996
766,385.0,0.0,0.0,186.0,0.0,966.0,763.0,14,27.9238
768,331.0,0.0,0.0,192.0,0.0,978.0,825.0,180,38.9968
770,349.0,0.0,0.0,192.0,0.0,1047.0,806.0,3,14.9892
772,382.0,0.0,0.0,186.0,0.0,1047.0,739.0,7,24.0007
774,382.0,0.0,0.0,186.0,0.0,1111.0,784.0,7,11.466
776,339.0,0.0,0.0,185.0,0.0,1069.0,754.0,7,21.16
778,295.0,0.0,0.0,185.0,0.0,1069.0,769.0,7,14.7962
780,238.0,0.0,0.0,185.0,0.0,1118.0,789.0,28,17.5403
782,296.0,0.0,0.0,192.0,0.0,1085.0,765.0,28,21.6495
784,331.0,0.0,0.0,192.0,0.0,879.0,825.0,3,13.5206
786,331.0,0.0,0.0,192.0,0.0,978.0,825.0,28,31.447
788,349.0,0.0,0.0,192.0,0.0,1047.0,806.0,7,18.1263
790,349.0,0.0,0.0,192.0,0.0,1047.0,806.0,90,39.4863
792,349.0,0.0,0.0,192.0,0.0,1047.0,806.0,360,42.127
794,302.0,0.0,0.0,203.0,0.0,974.0,817.0,180,26.7448
796,500.0,0.0,0.0,200.0,0.0,1125.0,613.0,90,47.2222
798,500.0,0.0,0.0,200.0,0.0,1125.0,613.0,270,55.15808
800,252.0,0.0,0.0,185.0,0.0,1111.0,784.0,7,13.7137
802,339.0,0.0,0.0,185.0,0.0,1060.0,754.0,28,31.6469
804,393.0,0.0,0.0,192.0,0.0,940.0,758.0,28,39.5828
806,382.0,0.0,0.0,185.0,0.0,1047.0,739.0,7,24.0007
808,252.0,0.0,0.0,186.0,0.0,1111.0,784.0,7,11.466
810,310.0,0.0,0.0,192.0,0.0,970.0,850.0,7,14.9892
812,310.0,0.0,0.0,192.0,0.0,970.0,850.0,90,34.6806
814,310.0,0.0,0.0,192.0,0.0,970.0,850.0,360,38.1142
816,525.0,0.0,0.0,189.0,0.0,1125.0,613.0,7,42.4235
818,525.0,0.0,0.0,189.0,0.0,1125.0,613.0,28,55.9441
820,525.0,0.0,0.0,189.0,0.0,1125.0,613.0,270,67.1136
822,322.0,0.0,0.0,203.0,0.0,974.0,800.0,28,25.1797
824,302.0,0.0,0.0,203.0,0.0,974.0,817.0,28,21.753
826,480.0,0.0,0.0,192.0,0.0,936.0,721.0,3,24.3937
828,522.0,0.0,0.0,146.0,0.0,896.0,896.0,28,74.9874
830,162.0,190.0,148.0,179.0,19.0,838.0,741.0,28,33.7567
832,147.0,115.0,89.0,202.0,9.0,860.0,829.0,28,19.9879
834,310.0,143.0,111.0,168.0,22.0,914.0,651.0,28,33.6878
836,304.0,140.0,0.0,214.0,6.0,895.0,722.0,28,33.4189
838,159.0,149.0,116.0,175.0,15.0,953.0,720.0,28,27.6756
840,310.0,143.0,0.0,168.0,10.0,914.0,804.0,28,45.2986
842,151.0,0.0,184.0,167.0,12.0,991.0,772.0,28,15.5684
844,298.0,137.0,107.0,201.0,6.0,878.0,655.0,28,53.524
846,366.0,187.0,0.0,191.0,7.0,824.0,757.0,28,65.907
848,252.0,97.0,76.0,194.0,8.0,835.0,821.0,28,33.3982
850,156.0,243.0,0.0,180.0,11.0,1022.0,698.0,28,37.3627
852,298.0,0.0,107.0,186.0,6.0,879.0,815.0,28,42.6372
854,287.0,121.0,94.0,188.0,9.0,904.0,696.0,28,41.9408
856,356.0,0.0,142.0,193.0,11.0,801.0,778.0,28,40.8652
858,322.0,149.0,0.0,186.0,8.0,951.0,709.0,28,52.4209
860,314.0,0.0,113.0,170.0,10.0,925.0,783.0,28,38.459
862,140.0,164.0,128.0,237.0,6.0,869.0,656.0,28,35.2253
864,298.0,0.0,107.0,210.0,11.0,880.0,744.0,28,31.8745
866,160.0,250.0,0.0,168.0,12.0,1049.0,688.0,28,39.4518
868,276.0,116.0,90.0,180.0,9.0,870.0,768.0,28,44.2781
870,149.0,139.0,109.0,193.0,6.0,892.0,780.0,28,23.6904
872,261.0,100.0,78.0,201.0,9.0,864.0,761.0,28,32.3985
874,313.0,0.0,113.0,178.0,8.0,1002.0,689.0,28,36.8042
876,146.0,230.0,0.0,202.0,3.0,827.0,872.0,28,33.0604
878,133.0,210.0,0.0,196.0,3.0,949.0,795.0,28,31.0264
880,152.0,0.0,112.0,184.0,8.0,992.0,816.0,28,12.1761
882,140.0,133.0,103.0,200.0,7.0,916.0,753.0,28,36.4388
884,300.0,0.0,120.0,212.0,10.0,878.0,728.0,28,23.8352
886,148.0,0.0,137.0,158.0,16.0,1002.0,830.0,28,17.954
888,153.0,145.0,0.0,178.0,8.0,1000.0,822.0,28,19.0089
890,158.0,0.0,195.0,220.0,11.0,898.0,713.0,28,8.53571
892,273.0,0.0,90.0,199.0,11.0,931.0,762.0,28,32.2399
894,143.0,169.0,143.0,191.0,8.0,967.0,643.0,28,29.7233
896,313.0,161.0,0.0,178.0,10.0,917.0,759.0,28,52.4415
898,336.0,0.0,0.0,182.0,3.0,986.0,817.0,28,44.8642
900,150.0,237.0,0.0,174.0,12.0,1069.0,675.0,28,37.4317
902,331.0,170.0,0.0,195.0,8.0,811.0,802.0,28,56.6129
904,155.0,183.0,0.0,193.0,9.0,877.0,868.0,28,23.7869
906,266.0,112.0,87.0,178.0,10.0,910.0,745.0,28,39.4173
908,313.0,145.0,0.0,127.0,8.0,1000.0,822.0,28,44.5195
910,144.0,136.0,106.0,178.0,7.0,941.0,774.0,28,26.1449
912,277.0,117.0,91.0,191.0,7.0,946.0,666.0,28,43.5749
914,313.0,145.0,0.0,178.0,8.0,1002.0,689.0,28,41.0514
916,289.0,134.0,0.0,195.0,6.0,924.0,760.0,28,46.2432
918,145.0,0.0,179.0,202.0,8.0,824.0,869.0,28,10.5352
920,136.0,162.0,126.0,172.0,10.0,923.0,764.0,28,29.0683
922,255.0,99.0,77.0,189.0,6.0,919.0,749.0,28,33.7981
924,136.0,196.0,98.0,199.0,6.0,847.0,783.0,28,26.9654
926,162.0,214.0,164.0,202.0,10.0,820.0,680.0,28,30.6472
928,149.0,153.0,194.0,192.0,8.0,935.0,623.0,28,24.5798
930,159.0,209.0,161.0,201.0,7.0,848.0,669.0,28,30.8816
932,154.0,174.0,185.0,228.0,7.0,845.0,612.0,28,24.3385
934,184.0,86.0,190.0,213.0,6.0,923.0,623.0,28,22.932
936,236.9,91.7,71.5,246.9,6.0,852.9,695.4,28,28.6298
938,154.8,183.4,0.0,193.3,9.1,1047.4,696.7,28,18.2877
940,296.0,0.0,106.7,221.4,10.5,819.2,778.4,28,31.4201
942,313.3,145.0,0.0,178.5,8.0,867.2,824.0,28,40.9252
944,153.1,145.0,113.0,178.5,8.0,1001.9,688.7,28,25.5596
946,149.5,236.0,0.0,175.8,12.6,846.8,892.7,28,32.9638
948,153.1,145.0,113.0,178.5,8.0,867.2,824.0,28,26.2332
950,326.5,0.0,137.9,199.0,10.8,801.1,792.5,28,38.6307
952,261.9,110.5,86.1,195.4,5.0,895.2,732.6,28,33.7188
954,150.7,0.0,185.3,166.7,15.6,1074.5,678.0,28,13.4613
956,149.0,117.6,91.7,182.9,7.1,953.4,780.3,28,23.5242
958,259.9,100.6,78.4,170.6,10.4,935.7,762.9,28,49.7733
960,284.0,119.7,0.0,168.3,7.2,970.4,794.2,28,40.9349
962,144.8,0.0,133.6,180.8,11.1,979.5,811.5,28,13.2021
964,143.7,170.2,132.6,191.6,8.5,814.1,805.3,28,29.8709
966,154.8,0.0,142.8,193.3,9.1,1047.4,696.7,28,12.4595
968,134.7,0.0,165.7,180.2,10.0,961.0,804.9,28,13.2938
970,314.0,145.3,113.2,178.9,8.0,869.1,690.2,28,46.2342
972,145.7,172.6,0.0,181.9,3.4,985.8,816.8,28,23.7442
974,148.1,0.0,182.1,181.4,15.0,838.9,884.3,28,15.5263
976,298.1,0.0,107.5,163.6,12.8,953.2,784.0,28,35.8659
978,155.2,183.9,143.2,193.8,9.2,879.6,698.5,28,28.9911
980,147.8,175.1,0.0,171.2,2.2,1000.0,828.5,28,26.9227
982,312.7,0.0,0.0,178.1,8.0,999.7,822.2,28,25.1038
984,154.8,0.0,142.8,193.3,9.1,877.2,867.7,28,9.73816
986,272.8,105.1,81.8,209.7,9.0,904.0,679.7,28,37.171
988,153.6,144.2,112.3,220.1,10.1,923.2,657.9,28,16.504
990,151.8,178.1,138.7,167.5,18.3,944.0,694.6,28,36.3499
992,143.6,0.0,174.9,158.4,17.9,942.7,844.5,28,15.4236
994,374.3,0.0,0.0,190.2,6.7,1013.2,730.4,28,39.0561
996,152.6,238.7,0.0,200.0,6.3,1001.8,683.9,28,26.8599
998,304.8,0.0,99.6,196.0,9.8,959.4,705.2,28,30.1232
1000,141.9,166.6,129.7,173.5,10.9,882.6,785.3,28,44.6119
1002,321.3,164.2,0.0,190.5,4.6,870.0,774.0,28,57.2182
1004,279.8,128.9,100.4,172.4,9.5,825.1,804.9,28,52.827
1006,164.6,0.0,150.4,181.6,11.7,1023.3,728.9,28,18.0339
1008,160.2,188.0,146.4,203.2,11.3,828.7,709.7,28,35.3143
1010,317.9,0.0,126.5,209.7,5.7,860.5,736.6,28,40.062
1012,325.6,166.4,0.0,174.0,8.9,881.6,790.0,28,61.2358
1014,132.0,206.5,160.9,178.9,5.5,866.9,735.6,28,33.3065
1016,164.2,0.0,200.1,181.2,12.6,849.3,846.0,28,15.0913
1018,321.4,0.0,127.9,182.5,11.5,870.1,779.7,28,37.2655
1020,288.4,121.0,0.0,177.4,7.0,907.9,829.5,28,42.1401
1022,264.5,111.0,86.5,195.5,5.9,832.6,790.4,28,41.5423
1024,166.0,259.7,0.0,183.2,12.7,858.8,826.8,28,37.917
1026,322.2,0.0,115.6,196.0,10.4,817.9,813.4,28,31.1788
1028,159.1,186.7,0.0,175.6,11.3,989.6,788.9,28,32.768
1029,260.9,100.5,78.3,200.6,8.6,864.5,761.5,28,32.4012